Folder: PeakPika/Worked Example/Example Data/Polymer1

Note: README.md
# PeakPika

A MATLAB package that helps peak fit 1D data spectra, particularly those with features modeled as a series of peaks such as phonon-coupled optical transitions.

Contents:
1. [Installation Instructions](#installation-instructions)
2. [Dependencies](#dependencies)
3. [Workflow](#workflow)
   - [Data Importing](#data-importing)
     - [Accepted File Types](#accepted-file-types)
     - [File Header Lines](#file-header-lines)
     - [Data Names](#data-names)
   - [Data Cleaning](#data-cleaning)
     - [Background Subtraction](#background-subtraction)
     - [Data Normalization](#data-normalization)
     - [Data Trimming](#data-trimming)
     - [Data Masking](#data-masking)
     - [Unit Conversion](#unit-conversion)
   - [Peak Fitting](#peak-fitting)
     - [Peak Types](#peak-types)
     - [Peaks](#peaks)
        - [Setting Initial Peak Heights](#setting-initial-peak-heights)
        - [Adding Peaks to Specific Spectra](#adding-peaks-to-specific-spectra)
        - [Adding Multiple Peaks Simultaneously](#adding-multiple-peaks-simultaneously)
     - [Peak Series](#peak-series)
        - [Setting Initial Peak Series Heights](#setting-initial-peak-series-heights)
        - [Adding Peak Series to Specific Spectra](#adding-peak-series-to-specific-spectra)
     - [Fitting Algorithm](#fitting-algorithm)
        - [Goodness of Fit](#goodness-of-fit)
        - [Number of Optimization Iterations](#number-of-optimization-iterations)
        - [Peak Parameter Settings](#peak-parameter-settings)
        - [Peak Series Parameter Sharing Settings](#peak-series-parameter-sharing-settings)
        - [Fit Adjustments](#fit-adjustments)
   - [Plotting](#plotting)
     - [Data Plotting](#data-plotting)
     - [Data Plot Handles](#data-plot-handles)
     - [Fit Plotting](#fit-plotting)
     - [Fit Plot Handles](#fit-plot-handles)
     - [Plot Customization](#plot-customization)
   - [Saving Results](#saving-results)
   - [Example Workflow](#example-workflow)
5. [Reporting Bugs and Errors](#reporting-bugs-and-errors)
6. [Authors](#authors)

## Installation Instructions
Releases of the PeakPika package can be downloaded [here](https://github.com/AlexSimafranca/PeakPika/releases). PeakPika is a MATLAB-recognizable package, so no "installation" process is necessary. Simply add the package folder named "+Pika" to a folder on the MATLAB path and add the directive `import Pika.*` to the top of your script. 

>To add the contents of a folder to the MATLAB path, navigate to the folder using the Folder Window in the MATLAB IDE (leftmost window by default), then run the command `addpath(genpath("."))` in the Command Window (bottom center by default). This will recursively add the current folder and any other folders contained within it to the path. 

>Be careful when recursively adding folders to the path as it could cause conflicts when MATLAB retrieves functions, especially if multiple versions of the package end up on the path. If issues are encountered, running `restor

File: 20230424_Polymer1_2mgml_H2SO4_0p01N.txt
20230424_F3_PCT-C3-SO3Na 2 mgml_H2SO4 0p01 N-2 - RawData
Wavelength nm.,Abs.
200.00,0.664
209.00,0.586
218.00,0.339
227.00,0.214
236.00,0.166
245.00,0.132
254.00,0.122
263.00,0.117
272.00,0.115
281.00,0.106
290.00,0.089
299.00,0.076
308.00,0.064
317.00,0.059
326.00,0.053
335.00,0.053
344.00,0.053
353.00,0.054
362.00,0.060
371.00,0.068
380.00,0.066
389.00,0.075
398.00,0.080
407.00,0.091
416.00,0.095
425.00,0.105
434.00,0.113
443.00,0.121
452.00,0.132
461.00,0.143
470.00,0.152
479.00,0.165
488.00,0.178
497.00,0.191
506.00,0.206
515.00,0.221
524.00,0.237
533.00,0.254
542.00,0.271
551.00,0.287
560.00,0.303
569.00,0.317
578.00,0.331
587.00,0.343
596.00,0.350
605.00,0.351
614.00,0.347
623.00,0.341
632.00,0.334
641.00,0.328
650.00,0.315
659.00,0.292
668.00,0.256
677.00,0.217
686.00,0.182
695.00,0.154
704.00,0.139
713.00,0.130
722.00,0.124
731.00,0.122
740.00,0.120
749.00,0.121
758.00,0.122
767.00,0.122
776.00,0.125
785.00,0.128
794.00,0.127
803.00,0.132
812.00,0.133
821.00,0.136
830.00,0.138
839.00,0.141
848.00,0.146
857.00,0.147
866.00,0.150
875.00,0.152
884.00,0.179
893.00,0.175
902.00,0.177
911.00,0.177
920.00,0.176
929.00,0.174
938.00,0.174
947.00,0.173
956.00,0.176
965.00,0.173
974.00,0.173
983.00,0.172
992.00,0.172
1001.00,0.169
1010.00,0.166
1019.00,0.165
1028.00,0.162
1037.00,0.159
1046.00,0.154
1055.00,0.150
1064.00,0.146
1073.00,0.141
1082.00,0.135
1091.00,0.130
1100.00,0.124
1109.00,0.118
1118.00,0.114
1127.00,0.107
1136.00,0.103
1145.00,0.099
1154.00,0.096
1163.00,0.091
1172.00,0.089
1181.00,0.086
1190.00,0.083
1199.00,0.081
1208.00,0.077
1217.00,0.077
1226.00,0.076
1235.00,0.075
1244.00,0.075
1253.00,0.074
1262.00,0.072
1271.00,0.072
1280.00,0.071
1289.00,0.072
1298.00,0.073
1307.00,0.073
1316.00,0.075
1325.00,0.077
1334.00,0.078
1343.00,0.081
1352.00,0.082
1361.00,0.084
1370.00,0.088
1379.00,0.090
1388.00,0.100
1397.00,0.116
1406.00,0.137
1415.00,0.148
1424.00,0.157
1433.00,0.165
1442.00,0.170
1451.00,0.172
1460.00,0.174
1469.00,0.171
1478.00,0.165
1487.00,0.161
1496.00,0.156
1505.00,0.152
1514.00,0.148
1523.00,0.145
1532.00,0.142
1541.00,0.140
1550.00,0.140
1559.00,0.139
1568.00,0.138
1577.00,0.140
1586.00,0.141
1595.00,0.142
1604.00,0.142
1613.00,0.143
1622.00,0.146
1631.00,0.146
1640.00,0.148
1649.00,0.150
1658.00,0.151
1667.00,0.154
1676.00,0.155
1685.00,0.158
1694.00,0.161
1703.00,0.163
1712.00,0.166
1721.00,0.169
1730.00,0.172
1739.00,0.176
1748.00,0.179
1757.00,0.183
1766.00,0.187
1775.00,0.191
1784.00,0.194
1793.00,0.197
1802.00,0.199
1811.00,0.203
1820.00,0.208
1829.00,0.207
1838.00,0.209
1847.00,0.215
1856.00,0.223
1865.00,0.239
1874.00,0.261
1883.00,0.306
1892.00,0.381
1901.00,0.458
1910.00,0.515
1919.00,0.545
1928.00,0.555
1937.00,0.554
1946.00,0.538
1955.00,0.518
1964.00,0.495
1973.00,0.474
1982.00,0.454
1991.00,0.434
2000.00,0.419
2009.00,0.404
2018.00,0.391
2027.00,0.379
2036.00,0.368
2045.00,0.362
2054.00,0.354
2063.00,0.347
2072.00,0.342
2081.00,0.336
2090.00,0.334
2099.00,0.327
2108.00,0.325
2117.00,0.322
2126.00,0.322
2135.00,0.325
2144.00,0.322
2153.00,0.319
2162.00,0.322
2171.00,0.325
2180.00,0.326
2189.00,0.326
2198.00,0.329
2207.00,0.327
2216.00,0.332
2225.00,0.332
2234.00,0.338
2243.00,0.336
2252.00,0.345
2261.00,0.345
2270.00,0.349
2279.00,0.355
2288.00,0.353
2297.00,0.360
2306.00,0.370
2315.00,0.375
2324.00,0.379
2333.00,0.381
2342.00,0.395
2351.00,0.407
2360.00,0.412
2369.00,0.418
2378.00,0.426
2387.00,0.435
2396.00,0.444
2405.00,0.455
2414.00,0.462
2423.00,0.476
2432.00,0.486
2441.00,0.498
2450.00,0.517
2459.00,0.535
2468.00,0.554
2477.00,0.556
2486.00,0.573
2495.00,0.584
2504.00,0.604
2513.00,0.616
2522.00,0.614
2531.00,0.616
2540.00,0.631
2549.00,0.623
2558.00,0.614
2567.00,0.642
2576.00,0.661
2585.00,0.671
2594.00,0.713
2600.00,0.689

File: 20230424_Polymer2_2mgml_H2SO4_0p05N.txt
20230424_F4_PCT-C3-SO3Na 2 mgml_H2SO4 0p05 N - RawData
Wavelength nm.,Abs.
200.00,0.684
209.00,0.608
218.00,0.349
227.00,0.221
236.00,0.174
245.00,0.140
254.00,0.128
263.00,0.123
272.00,0.118
281.00,0.110
290.00,0.094
299.00,0.080
308.00,0.069
317.00,0.063
326.00,0.059
335.00,0.058
344.00,0.059
353.00,0.059
362.00,0.065
371.00,0.071
380.00,0.073
389.00,0.076
398.00,0.084
407.00,0.093
416.00,0.099
425.00,0.106
434.00,0.114
443.00,0.121
452.00,0.132
461.00,0.142
470.00,0.152
479.00,0.163
488.00,0.175
497.00,0.188
506.00,0.201
515.00,0.216
524.00,0.230
533.00,0.246
542.00,0.261
551.00,0.276
560.00,0.290
569.00,0.303
578.00,0.316
587.00,0.326
596.00,0.332
605.00,0.333
614.00,0.330
623.00,0.323
632.00,0.316
641.00,0.311
650.00,0.298
659.00,0.278
668.00,0.245
677.00,0.210
686.00,0.179
695.00,0.154
704.00,0.140
713.00,0.132
722.00,0.127
731.00,0.125
740.00,0.124
749.00,0.124
758.00,0.125
767.00,0.127
776.00,0.130
785.00,0.131
794.00,0.132
803.00,0.135
812.00,0.136
821.00,0.141
830.00,0.140
839.00,0.145
848.00,0.148
857.00,0.152
866.00,0.152
875.00,0.153
884.00,0.174
893.00,0.172
902.00,0.174
911.00,0.176
920.00,0.176
929.00,0.175
938.00,0.173
947.00,0.173
956.00,0.174
965.00,0.173
974.00,0.173
983.00,0.171
992.00,0.172
1001.00,0.169
1010.00,0.166
1019.00,0.164
1028.00,0.162
1037.00,0.156
1046.00,0.154
1055.00,0.148
1064.00,0.145
1073.00,0.140
1082.00,0.135
1091.00,0.130
1100.00,0.124
1109.00,0.119
1118.00,0.116
1127.00,0.110
1136.00,0.107
1145.00,0.103
1154.00,0.100
1163.00,0.097
1172.00,0.093
1181.00,0.089
1190.00,0.087
1199.00,0.086
1208.00,0.084
1217.00,0.082
1226.00,0.082
1235.00,0.081
1244.00,0.081
1253.00,0.080
1262.00,0.078
1271.00,0.079
1280.00,0.077
1289.00,0.078
1298.00,0.079
1307.00,0.080
1316.00,0.083
1325.00,0.084
1334.00,0.085
1343.00,0.088
1352.00,0.090
1361.00,0.096
1370.00,0.096
1379.00,0.103
1388.00,0.111
1397.00,0.128
1406.00,0.142
1415.00,0.155
1424.00,0.163
1433.00,0.172
1442.00,0.176
1451.00,0.178
1460.00,0.180
1469.00,0.178
1478.00,0.174
1487.00,0.170
1496.00,0.165
1505.00,0.161
1514.00,0.157
1523.00,0.154
1532.00,0.151
1541.00,0.150
1550.00,0.148
1559.00,0.148
1568.00,0.148
1577.00,0.149
1586.00,0.150
1595.00,0.151
1604.00,0.152
1613.00,0.152
1622.00,0.156
1631.00,0.156
1640.00,0.158
1649.00,0.160
1658.00,0.162
1667.00,0.164
1676.00,0.167
1685.00,0.168
1694.00,0.172
1703.00,0.173
1712.00,0.176
1721.00,0.179
1730.00,0.183
1739.00,0.185
1748.00,0.188
1757.00,0.193
1766.00,0.195
1775.00,0.199
1784.00,0.202
1793.00,0.206
1802.00,0.208
1811.00,0.209
1820.00,0.215
1829.00,0.213
1838.00,0.218
1847.00,0.230
1856.00,0.233
1865.00,0.245
1874.00,0.266
1883.00,0.312
1892.00,0.386
1901.00,0.459
1910.00,0.515
1919.00,0.548
1928.00,0.556
1937.00,0.553
1946.00,0.538
1955.00,0.517
1964.00,0.498
1973.00,0.474
1982.00,0.456
1991.00,0.437
2000.00,0.422
2009.00,0.405
2018.00,0.395
2027.00,0.384
2036.00,0.372
2045.00,0.368
2054.00,0.358
2063.00,0.354
2072.00,0.350
2081.00,0.343
2090.00,0.342
2099.00,0.337
2108.00,0.333
2117.00,0.331
2126.00,0.329
2135.00,0.329
2144.00,0.327
2153.00,0.328
2162.00,0.330
2171.00,0.329
2180.00,0.333
2189.00,0.333
2198.00,0.333
2207.00,0.337
2216.00,0.338
2225.00,0.340
2234.00,0.342
2243.00,0.346
2252.00,0.350
2261.00,0.352
2270.00,0.355
2279.00,0.358
2288.00,0.362
2297.00,0.366
2306.00,0.373
2315.00,0.378
2324.00,0.385
2333.00,0.392
2342.00,0.403
2351.00,0.407
2360.00,0.415
2369.00,0.423
2378.00,0.433
2387.00,0.441
2396.00,0.449
2405.00,0.457
2414.00,0.471
2423.00,0.481
2432.00,0.495
2441.00,0.508
2450.00,0.520
2459.00,0.531
2468.00,0.548
2477.00,0.563
2486.00,0.579
2495.00,0.589
2504.00,0.598
2513.00,0.605
2522.00,0.616
2531.00,0.625
2540.00,0.619
2549.00,0.637
2558.00,0.636
2567.00,0.645
2576.00,0.636
2585.00,0.662
2594.00,0.708
2600.00,0.682